STUDYID,RDOMAIN,USUBJID,IDVAR,IDVARVAL,QNAM,QLABEL,QVAL,QORIG,QEVAL
FAR-1004,RE,FAR-1004/C0000514,RESEQ,10,RECLSIG,Clinically Significant,N,CRF,
FAR-1004,RE,FAR-1004/C0000094,RESEQ,10,RECLSIG,Clinically Significant,Y,CRF,
FAR-1004,RE,FAR-1004/C0000094,RESEQ,6,RECLSIG,Clinically Significant,Y,CRF,
FAR-1004,RE,FAR-1004/C0000094,RESEQ,8,RECLSIG,Clinically Significant,Y,CRF,
